#lambda/nm	DC	C1
208.295	550	542.6
208.67	486.6	485
209.045	451.2	454
209.419	445	444.4
209.794	587.8	584.6
210.169	578.6	574.2
210.544	671.8	672.2
210.919	590	586.8
211.295	580	574.4
211.67	585.8	586.2
212.045	582.2	579.4
212.421	579.8	578.8
212.796	611.6	615.2
213.172	574.8	586
213.547	580.2	575.4
213.923	576	579.2
214.299	581.2	579.2
214.675	585.4	582.6
215.051	584.6	586.6
215.427	595.2	591.4
215.803	604.6	595.6
216.179	593	581.2
216.555	578.4	580.8
216.932	584.8	589.4
217.308	583.4	581
217.684	595.2	578.2
218.061	584.2	586.8
218.438	584.4	590
218.814	576.4	582.2
219.191	592.4	587.6
219.568	576.8	577.8
219.945	577	584.4
220.322	586.2	579.2
220.699	584.8	578.8
221.076	589.8	586.8
221.453	587.6	582.6
221.83	572.8	581.2
222.208	579.6	582
222.585	576.6	571.8
222.962	588.2	589.2
223.34	582.6	586.8
223.717	582	575
224.095	581	577.8
224.473	582.8	585
224.851	584	573.2
225.229	568.4	570.6
225.607	590.8	592.2
225.985	575.6	580.6
226.363	577.4	585.8
226.741	578.4	583
227.119	586.2	579.4
227.497	598	589
227.876	575.2	567.2
228.254	584.4	591.8
228.633	589.4	585.4
229.011	582.4	587.6
229.39	586.4	586.8
229.769	585.4	592.4
230.148	590.2	591.4
230.527	594.6	593.6
230.905	589.4	584
231.284	577.8	582.4
231.664	579.8	576.6
232.043	593.2	591.8
232.422	594.6	591.2
232.801	583.4	574.2
233.181	582.4	586.4
233.56	581.4	581
233.94	578.2	580.4
234.319	584.6	569.2
234.699	581.4	578
235.079	616.8	621.6
235.458	615.6	611.6
235.838	605.2	594.4
236.218	583	571
236.598	574.4	579
236.978	576.8	574.6
237.358	574.8	575.2
237.738	586.8	577.4
238.119	590.8	584.4
238.499	571.4	573.4
238.88	581.8	587.6
239.26	594.4	590
239.641	578.6	578.8
240.021	578.6	584.8
240.402	577.6	577.8
240.783	570.6	579.4
241.163	578	581.6
241.544	582.2	595.4
241.925	580.4	582.6
242.306	590	597
242.687	585.8	588.4
243.069	583.8	587
243.45	587.6	587.4
243.831	572.2	583.8
244.212	578.8	582
244.594	607	619
244.975	590	586.4
245.357	587.2	590.4
245.739	573.8	580.8
246.12	583.6	577.2
246.502	594.4	594.2
246.884	585.2	581.6
247.266	577.4	572
247.648	581.8	585.2
248.03	602	596.2
248.412	584.6	580.6
248.794	581.6	583.4
249.176	582.4	579.2
249.559	593.2	588.6
249.941	574.6	571
250.323	575.6	568.4
250.706	578.4	577.6
251.089	579	581.8
251.471	583	590.6
251.854	582.6	588.8
252.237	584.2	579.8
252.62	593.4	592.8
253.002	585.2	579.4
253.385	588.2	584
253.769	592.2	587
254.152	581.8	584
254.535	586.6	593.8
254.918	570.4	576.4
255.301	583.4	586
255.685	572.6	586.4
256.068	574.8	572.4
256.452	594.8	603.4
256.835	590.2	598.6
257.219	580	590.8
257.603	591.8	590.4
257.986	577	576.8
258.37	590	590.2
258.754	575.8	578.4
259.138	586.2	590.4
259.522	579.8	593
259.906	572.2	575.2
260.29	587.6	586.4
260.675	583	582.8
261.059	579.4	584.2
261.443	572.4	571.2
261.828	591.6	586.4
262.212	586.8	593.8
262.597	573.6	569.8
262.981	579.4	588
263.366	589.6	585.8
263.751	585.2	579
264.136	582.2	583.8
264.521	584.2	577.2
264.906	576.4	584.2
265.291	591	589.6
265.676	579	587
266.061	584.8	586.8
266.446	597.4	595
266.831	590.2	579.4
267.217	600.4	597.8
267.602	581.8	588.8
267.987	582.8	590.2
268.373	576.8	572.6
268.759	588.2	593.2
269.144	587	586.4
269.53	579.8	578.8
269.916	577.6	576.8
270.302	580.4	578.8
270.688	588	582.4
271.074	582.6	584.8
271.46	581.4	592.4
271.846	598.2	611.8
272.232	586.8	585.2
272.618	570.8	579.4
273.004	582.8	579.6
273.391	593.8	593.6
273.777	588.8	589
274.164	587.8	587.6
274.55	585.2	597.6
274.937	590.6	580.2
275.324	579.4	582.8
275.71	585.8	582.8
276.097	585.8	598.2
276.484	578.4	578
276.871	589.2	581.2
277.258	589.4	576.6
277.645	570.4	585
278.032	584.4	574.4
278.419	580.2	582
278.807	589.4	577.2
279.194	577	572.6
279.581	576.2	580.6
279.969	591	584
280.356	588.2	589.4
280.744	583.8	581
281.131	606	602
281.519	591.2	589
281.907	581.8	587.6
282.295	577.2	578.6
282.682	593	593.2
283.07	580.8	587
283.458	588.8	593.6
283.846	596.4	589.6
284.235	599.6	592
284.623	590.6	591
285.011	569.8	574.4
285.399	591.4	590.4
285.788	577.4	589.2
286.176	574.8	577
286.565	586.6	589.6
286.953	582.6	579.2
287.342	580	576.8
287.731	578	570.6
288.119	580.2	576.2
288.508	581.8	580.4
288.897	580.4	586.4
289.286	577.8	572.6
289.675	584.6	585.2
290.064	591.2	584.6
290.453	578.2	574.6
290.821	582.6	584.4
291.21	600	588.6
291.599	583.4	580.2
291.989	589.4	581.6
292.378	588	592.4
292.768	601.6	594.4
293.157	583.6	582.6
293.547	589.6	587.8
293.936	585	577.6
294.326	581.6	579.8
294.716	582.6	594.4
295.106	580.6	585.2
295.496	588	586.4
295.886	589	581.2
296.276	575	582.6
296.666	574.8	580.6
297.056	581.6	577.4
297.446	566.4	575.8
297.836	595	596.8
298.227	584.6	581.6
298.617	584.4	581.4
299.008	583.8	597.6
299.398	579	581.2
299.789	584	576.6
300.179	590.8	585.2
300.57	599	593
300.961	581.6	582.8
301.352	583.4	586.2
301.742	586.6	588.4
302.133	590	588.2
302.524	579.6	586.8
302.915	589.6	582.8
303.307	574	580.8
303.698	602	588
304.089	596.4	587.2
304.48	580.4	586.2
304.872	586.2	584.2
305.263	587.6	579.2
305.655	581.6	578.4
306.046	591.4	583
306.438	589.8	583.2
306.829	583.4	579.4
307.221	596.8	595.2
307.613	591.2	579.6
308.005	594.2	589.2
308.397	595.8	591.8
308.789	605.4	593.4
309.181	608.4	595.6
309.573	600.6	594.6
309.965	592.6	599.4
310.357	583	583.2
310.749	580.4	591.8
311.142	580.6	572.4
311.534	576.8	573.8
311.926	590.2	588
312.319	590	585
312.711	572	579
313.104	593	592.6
313.497	579	581.6
313.889	621.6	610.2
314.282	592.2	588.6
314.675	606.8	607.4
315.068	585.4	587
315.461	592.8	591.4
315.854	607.6	604.8
316.247	597.2	589
316.64	584	581.8
317.033	589.6	585.2
317.405	587.6	595.6
317.798	588.4	582
318.192	584.6	582.6
318.585	579	583
318.979	583.6	593
319.372	578.8	590.2
319.766	579.8	578
320.16	588.4	592.8
320.553	596.2	601.4
320.947	600	599.6
321.341	583.4	574.4
321.735	579.6	581
322.129	570	576.4
322.523	605.4	607
322.917	575	578.2
323.311	595.4	587.8
323.705	582.2	589.4
324.099	582.8	586.6
324.494	588.4	593.6
324.888	584.8	591.6
325.282	585.4	583.4
325.677	592	594.2
326.071	583.6	590
326.466	597.6	590
326.861	580.2	587.2
327.255	590	593.4
327.65	594.6	600.8
328.045	596.2	600.4
328.44	580.8	583.8
328.835	584.2	585
329.23	576.2	575
329.625	602.8	606.4
330.02	579	575.6
330.415	601.8	603.4
330.81	584.2	589.8
331.206	585.6	582
331.601	576.2	576
331.996	593.6	596
332.37	598.8	606.6
332.766	575.2	582.6
333.161	602	604.8
333.557	579.2	577.4
333.953	586.8	577.4
334.348	879.4	873
334.744	584	587.8
335.14	582.2	576.4
335.536	585.2	574.6
335.932	591.2	590.2
336.328	583	575.8
336.724	584.6	587.6
337.12	586.4	581.4
337.516	584.6	580
337.913	586.8	575.6
338.309	599	591.8
338.705	577.4	581.2
339.102	592.2	586.4
339.498	580.8	582.2
339.895	596	599
340.291	582.4	573.2
340.688	587	587.2
341.085	574.6	575.6
341.481	577	577.6
341.878	575.6	581
342.275	594.2	601.6
342.672	576	576.4
343.069	577.6	575.4
343.466	569.6	566.8
343.842	587	581.6
344.239	580	578
344.636	581.6	576.2
345.033	577.6	574.8
345.431	571.8	569.8
345.828	581.8	589
346.225	577.8	579.6
346.623	593.4	595.4
347.02	581.8	577
347.418	593.4	592.2
347.816	587.6	601.6
348.213	574.8	570.4
348.611	582	583
349.009	578.4	584
349.407	596	588.6
349.805	570.4	560.6
350.203	561.8	574
350.601	592.2	592.2
350.999	577.8	575.8
351.397	618	619.4
351.795	581	580.6
352.193	594.4	593
352.57	594	592.4
352.969	593	589
353.367	575.2	574.8
353.766	580	574.2
354.164	577.6	580.6
354.563	589.6	593.6
354.961	581.4	587
355.36	578.2	572.4
355.759	579.8	573
356.158	567.8	574.4
356.557	571.4	565.4
356.956	578.2	575.4
357.355	564	568
357.754	580	577.8
358.153	578.8	579.6
358.552	599.4	601
358.951	578	573.4
359.35	593.8	593.4
359.75	577	578.2
360.149	569.2	567.4
360.527	565.8	569.6
360.926	572.4	569.6
361.326	590.2	584.2
361.726	581.4	585.6
362.125	577.6	579.4
362.525	585.4	580.8
362.925	577	569.8
363.325	580.4	571.2
363.724	573.2	571.8
364.124	580	567.8
364.524	577	573.6
364.924	575.6	575.2
365.324	581.2	584.6
365.725	571	562.4
366.125	575.6	583.2
366.525	575.6	578.4
366.904	564.4	576
367.304	564.2	564
367.705	585.4	591.2
368.105	574.4	584.6
368.506	573.2	587.2
368.906	577.4	572
369.307	572	585.4
369.708	580.2	576
370.108	572.8	568.8
370.509	584	580
370.91	571	568.4
371.311	571.2	575.4
371.712	583.6	580.2
372.113	579.4	573.4
372.514	560.8	567.8
372.894	570.8	573
373.295	569.2	574.2
373.696	586.8	580.8
374.097	583.4	589.2
374.499	603.8	605.2
374.9	584.6	583.2
375.301	566.6	572.8
375.703	573.2	577.6
376.105	571	573.6
376.506	581	579.8
376.908	572	579
377.309	579.2	577.6
377.711	580.2	578.6
378.113	582.4	575.6
378.493	580.2	581.4
378.895	574.4	570.2
379.297	581.2	590.2
379.699	566.8	563.6
380.102	579	580.6
380.504	580.8	572.6
380.906	568	583.2
381.308	597.4	592.4
381.71	572.2	577.6
382.113	583.6	589.2
382.515	574.2	585
382.918	579.4	582
383.299	577	578.2
383.701	586.2	581.8
384.104	575.2	574
384.507	560	559.6
384.909	571.2	570.6
385.312	563.6	569.6
385.715	567	575.6
386.118	569.2	569.6
386.521	565.6	569.2
386.924	590.2	579.4
387.327	569.8	570.6
387.709	560.6	576.2
388.112	567.6	560
388.515	574.2	577.6
388.918	583.2	582.8
389.322	581.2	578
389.725	574.8	576.2
390.129	595.4	595
390.532	580	583
390.936	570	571.6
391.339	568.4	573.6
391.743	580	579.2
392.125	570.8	569.6
392.529	586.6	586.4
392.933	588	583.6
393.337	578.2	582.6
393.74	574.6	574.2
394.144	580	578.8
394.548	571.4	573.8
394.953	572.8	574
395.357	583.4	582.6
395.761	573.6	579.6
396.144	570.8	575
396.548	574.6	577.6
396.952	579	572
397.357	574.2	579.4
397.761	574.6	577
398.166	578.4	573.2
398.57	583.8	560.4
398.975	559.8	560.4
399.379	572.4	574
399.763	617.4	621.6
400.168	570.4	574.6
400.572	580.2	579
400.977	567.8	567.8
401.382	592	595.6
401.787	585.8	583.6
402.192	590.4	591.4
402.597	590.6	585.8
403.002	563.6	562.6
403.386	579.6	586.2
403.791	588.8	586
404.197	572	571.6
404.602	581	579.6
405.007	576.4	577.6
405.413	576.8	572.4
405.818	573.4	573.2
406.224	570	568.4
406.608	573	582.4
407.014	566	566.6
407.42	582.6	578.8
407.825	570.8	564
408.231	587.4	579
408.637	579.4	575.2
409.043	587.4	582.8
409.449	571.2	565.8
409.834	572.6	573.6
410.24	575	573.2
410.646	580.2	579
411.052	583.8	585.2
411.458	577.8	576.6
411.865	584.8	583
412.271	580.4	587.4
412.677	576.2	578.8
413.062	586.8	578
413.469	562.4	571.2
413.875	604.6	590.4
414.282	578	585.4
414.689	577.4	579.2
415.095	578	577
415.502	568.2	566.2
415.888	579.4	575.2
416.294	569.4	568.2
416.701	616.4	607.8
417.108	574.8	570.2
417.515	584.6	581.8
417.923	576.2	572.6
418.33	592.2	587.8
418.715	581.6	585
419.123	572.6	577.2
419.53	573.2	570.2
419.937	574.6	576.6
420.345	583.6	586.8
420.752	571.6	571.6
421.16	583.4	584.8
421.546	580.2	580.4
421.953	576.8	588
422.361	568.4	573.2
422.769	580	573.2
423.177	575.4	578.8
423.585	596.8	605
423.992	599.6	587.4
424.379	593	591
424.787	583.2	588.4
425.195	597.6	589.6
425.603	577.2	572
426.011	587.4	592.8
426.419	594.6	590.6
426.806	576.8	582.8
427.214	579.8	587.8
427.623	584.4	591.4
428.031	598.6	598
428.44	584.4	588.2
428.848	585.6	599
429.235	595.6	606.2
429.644	587.2	592.4
430.053	580	602.2
430.461	594.2	614.6
430.87	601.4	620.4
431.279	592.8	613
431.666	580.2	601.2
432.075	577.6	622
432.484	588.2	616.8
432.893	575.8	618.4
433.302	599.8	647.2
433.711	615.8	675.2
434.099	588.8	649.6
434.508	579.6	653
434.918	574	654.2
435.327	599	671.4
435.737	590	679
436.125	585	684.8
436.534	592.6	701
436.944	585.4	705.6
437.353	586.2	713.2
437.763	599.2	730.4
438.173	579.8	714.6
438.561	592.2	726.2
438.971	574.2	719.8
439.381	586	726.4
439.791	587.8	754.8
440.201	575.8	750.6
440.589	590.2	763.4
440.999	594.8	768.6
441.409	595	771
441.819	574.2	765.4
442.23	604.4	795
442.619	592.8	800.6
443.029	594.6	808.2
443.439	595.6	810.6
443.85	599.8	815.8
444.26	604.4	822.6
444.649	606	827.8
445.06	605.2	827.4
445.471	603.4	825.2
445.881	604.4	831.6
446.292	614	856.4
446.682	618.2	870
447.092	598.6	839
447.503	640.6	890.8
447.914	603.8	856.2
448.325	613.6	855
448.715	608.2	865.4
449.126	609.2	854.8
449.537	610.6	849.8
449.948	618.2	852
450.338	624.2	860
450.75	624.2	871
451.161	616.2	863.4
451.572	626.8	877.6
451.984	610.2	861
452.374	603.4	858.8
452.786	616.6	869.6
453.197	621	876.6
453.609	632.6	883.8
453.999	616.4	860
454.411	618.2	860.4
454.823	631.4	886
455.235	624.8	875.4
455.647	614.2	877.8
456.037	615.4	884.8
456.449	602.2	868.8
456.862	618.4	891
457.274	620.6	889.6
457.665	604.6	878
458.077	619.2	890.6
458.489	637	900.4
458.902	613.6	873.8
459.293	621.8	873.8
459.705	611.8	888.6
460.118	601.2	883.4
460.53	606.6	885.4
460.921	605	880.4
461.334	608	880.8
461.747	596.2	877.4
462.16	613.6	884.2
462.551	610.6	890
462.964	602	890.2
463.377	586.8	873
463.79	595.8	873.2
464.182	601.6	885.2
464.595	583.8	868.6
465.008	593	877.4
465.421	595.6	877.2
465.813	593.6	881.6
466.226	594.6	877.2
466.64	583	873.2
467.053	631.2	911.8
467.445	591.6	888.6
467.859	608.4	893.2
468.272	587.4	894
468.686	598.8	891
469.078	592.6	872.2
469.492	570.4	868.2
469.906	587.8	886.2
470.298	584.4	882.2
470.712	582.8	868.2
471.126	613	902.8
471.54	573.4	867.6
471.933	580.2	868.4
472.347	579.6	870.6
472.761	582.4	873.8
473.175	580.4	868.2
473.568	583.8	876.6
473.982	582.8	867.6
474.397	587.2	877.4
474.79	587.4	866.6
475.204	596	873.4
475.619	584.8	874.8
476.033	584	855.6
476.426	579.8	864.6
476.841	579	864.4
477.256	611	875
477.649	578.8	847.8
478.064	580	841.4
478.479	571.8	857.2
478.872	572.2	849
479.287	566.2	831.4
479.702	586.4	850.8
480.118	584	846.8
480.511	579.2	839.6
480.927	582	845.6
481.342	571.6	851.2
481.736	586.2	857.2
482.151	575.2	835.4
482.566	586.8	845.6
482.96	571.4	837
483.376	587.2	851.8
483.792	576	829
484.186	571.6	827.8
484.602	571.6	838.4
485.017	574.2	838.8
485.412	584.2	826.2
485.827	586.2	840
486.243	573	829.6
486.638	602	851
487.054	589	831
487.47	598.4	835.8
487.865	577.2	817.2
488.281	572.6	820.2
488.697	576.4	825.6
489.092	576.8	814
489.508	571.8	811.8
489.925	584.2	825
490.32	573.2	805.2
490.736	591.4	816
491.153	577	801.8
491.548	572.6	802
491.964	575.2	824.8
492.381	566.2	795.2
492.776	580.4	799.4
493.193	578.8	801.8
493.61	578.4	808.8
494.006	578	798.6
494.422	581.2	803.8
494.84	571.2	785.6
495.235	579.2	796.6
495.652	576.4	788.4
496.069	573.2	791.4
496.465	565.4	785.8
496.883	574	784.8
497.3	603	806
497.696	568.4	774.8
498.113	588.6	778.8
498.509	579.2	761.2
498.927	575.8	768.8
499.344	572.8	778.4
499.741	578.4	763.6
500.158	592.8	786.4
500.576	588	780.4
500.973	581.8	772.8
501.39	572.6	756.6
501.787	570.4	762.4
502.205	581.8	764.2
502.623	583.4	751.2
503.02	571.2	739
503.438	579.6	758.6
503.856	581.6	758.4
504.253	586.4	755.8
504.671	579.8	757
505.068	577.4	754.6
505.486	581.4	743.6
505.905	601.2	760.2
506.302	581.2	745.6
506.72	587.2	751.2
507.118	575.8	737.2
507.536	580.8	738.4
507.955	576.4	732.6
508.352	588.2	739.2
508.771	583.8	733.2
509.169	578	729.8
509.587	571.4	725
510.006	583.8	731.4
510.404	576.6	727
510.823	583	721
511.221	578.4	727.8
511.64	588.8	730.8
512.038	597.4	732.4
512.457	591.6	730.6
512.877	582.8	714.6
513.275	583.6	715.4
513.694	587	712
514.092	586	713.4
514.512	589.4	726.8
514.91	588.8	725
515.33	586.8	721
515.749	588.6	716.8
516.148	595.2	716.6
516.568	591.6	717.4
516.966	592	715.2
517.386	587.8	712.2
517.785	590.2	712.8
518.205	585.4	696.4
518.603	581.4	695.4
519.024	585.4	694.4
519.444	594	698.6
519.843	592.6	711.6
520.263	599.6	713.4
520.662	600	705.2
521.082	595.6	699.4
521.481	597	688.2
521.902	591.2	690.2
522.301	594.8	685.6
522.722	598.2	694.4
523.121	606	691.8
523.542	596	690.4
523.963	600.8	695.8
524.362	591.4	681.8
524.783	599.2	678.8
525.183	601.8	686.8
525.604	608	685.8
526.003	594.8	669.6
526.425	594.4	679.8
526.824	605	679.6
527.246	602.2	686.6
527.646	608	683.6
528.067	602.6	674
528.467	609.4	681.4
528.888	601	684.4
529.289	597	665.6
529.71	606	678.2
530.11	595	668.4
530.532	601.4	664.6
530.932	595.2	667
531.354	596.8	669.2
531.755	631.8	695.6
532.176	605	669.6
532.577	605.4	661.4
532.999	605.8	665.2
533.4	602.2	663.2
533.822	610.2	670.4
534.223	619.4	659.6
534.645	607	657.4
535.046	604	660.6
535.468	609.6	648.2
535.869	612.4	677.4
536.292	607.8	647.8
536.693	631.2	678.4
537.115	600.8	648.2
537.516	604.8	645.8
537.939	600.6	643.4
538.34	617.4	673.4
538.742	615	660.6
539.165	604	651.6
539.566	609	643.8
539.989	597.6	637
540.391	595.4	643.8
540.814	605.6	649
541.216	610.2	642.8
541.639	608.2	649
542.041	614.6	657.8
542.464	607	645.8
542.866	599.6	648.6
543.268	596.4	642.8
543.691	610.8	651.4
544.093	612.6	644.6
544.517	614.8	658.2
544.919	594	633.4
545.343	626.8	660
545.745	602.4	638.4
546.147	604.8	639.4
546.571	598.6	638.6
546.974	601.8	638
547.398	604	645.4
547.8	611.2	654.2
548.224	596	636.6
548.627	591	629.2
549.03	608	641
549.454	590	626.2
549.857	592.2	628.2
550.281	595	629.8
550.684	596.8	630.4
551.087	611.2	634
551.512	601.8	634
551.915	596.2	633
552.34	596.4	636.6
552.743	595.2	626.8
553.146	595.8	627.4
553.571	592.4	624.8
553.975	611.4	646.4
554.399	587.2	624.6
554.803	635.2	659.2
555.207	588	617.4
555.632	580.6	623
556.036	600.8	634.8
556.461	583.8	611.6
556.865	594.2	620.2
557.268	587.2	613.4
557.694	586.6	617.6
558.098	593.6	628.8
558.502	593.6	625.6
558.927	586	614.8
559.332	591.4	623
559.736	593.8	612.2
560.162	595	622.2
560.566	583.8	612
560.992	592.4	619.2
561.396	582.2	610.6
561.801	590.4	613.8
562.227	581	613.6
562.631	582	611
563.036	583.8	610.2
563.462	594.8	621
563.867	582.6	614.6
564.272	577	594.8
564.698	590.4	611.4
565.103	566.8	601.4
565.508	593.8	623.4
565.935	576.8	609.4
566.34	586.8	605
566.745	585.8	619.6
567.172	582.4	607.4
567.577	595.8	617.8
567.982	595.2	620.2
568.409	586.6	614.4
568.815	577.8	600
569.22	583.6	596.2
569.626	585.6	612
570.053	576	598.2
570.459	589.2	608.4
570.865	586.6	611.6
571.292	588.2	605.8
571.698	584.8	603.2
572.104	570.6	594.6
572.531	578.2	599.4
572.937	581.8	609.2
573.343	577.2	602.2
573.75	577	590.6
574.177	574.6	607.6
574.583	588.2	608.4
574.99	579.6	598.6
575.396	577.6	601.6
575.824	582.2	591.8
576.231	585	604.4
576.637	570.4	592.8
577.065	594.2	615.6
577.472	568	589.2
577.879	577.6	598.4
578.286	589.6	602.6
578.714	573	592.8
579.121	580	594.8
579.528	581.4	594.4
579.935	589.8	604.4
580.364	578	587.4
580.771	560.2	583.6
581.178	568.8	591.4
581.585	577.2	593.4
582.014	580.4	594
582.421	578.2	587.8
582.829	567.4	586.2
583.236	582.8	596.4
583.644	579	583
584.073	577.4	578.6
584.481	579.2	589.6
584.889	567	584.6
585.296	575.4	595.2
585.726	580.6	589.4
586.134	578.8	577.2
586.542	574.6	587.6
586.95	589.6	602.4
587.358	566.8	587.6
587.787	578	588.4
588.196	573.4	580
588.604	572.2	591.4
589.012	574.4	596.2
589.421	571	582.2
589.851	573.2	578.6
590.259	589.4	582.8
590.668	581.4	579.8
591.076	606.8	616
591.485	565.6	578
591.894	574	582.8
592.324	590.6	591.4
592.733	582	593.6
593.142	563.4	572.4
593.551	580	582.4
593.96	575.2	614.8
594.369	573.8	574
594.8	575.2	569.8
595.209	578.2	585.8
595.618	566.8	569.4
596.028	578.6	577.8
596.437	576	575.2
596.847	584.8	584.8
597.256	586	581.8
597.687	579	583.6
598.097	580.2	580
598.507	569.6	570
598.917	579.2	580.8
599.327	583.2	590.6
599.736	584.8	579.2
600.146	591	592.4
600.556	578.2	578.6
600.988	589	588.8
601.398	575.2	572.4
601.808	588.6	582.6
602.219	570.2	568.6
602.629	575.8	576.8
603.039	584.4	577.4
603.45	595.4	598.2
603.86	581	582.2
604.271	592.4	587
604.703	579.2	572.2
605.114	585.4	572.2
605.525	584.6	577.4
605.935	593	582.6
606.346	596	593.2
606.757	590.6	581.4
607.168	592.4	580.8
607.579	577.8	572.4
607.99	596.2	580.8
608.402	587.6	567
608.813	589.4	584
609.224	588	578
609.636	584.8	570.6
610.047	591.4	570.8
610.48	598.4	575.4
610.892	593.2	588.8
611.303	598	586
611.715	602	587.2
612.127	595.4	575.2
612.539	595	574.4
612.95	602.4	582.6
613.362	603.2	579.4
613.774	606.6	573.8
614.186	605.8	573.8
614.599	604.4	581.8
615.011	621	588.8
615.423	598.2	577.2
615.835	596.8	576.2
616.248	586	582
616.66	603.4	581.6
617.073	594.2	576.4
617.485	589.4	569.8
617.898	601.2	582
618.311	597.8	580.8
618.723	589.8	585.6
619.136	617.8	602.2
619.549	597	592.6
619.962	615.4	599.6
620.375	589.4	574.6
620.788	592.8	584
621.201	582.8	573.8
621.614	591.6	591.8
622.028	594	573
622.441	585.6	578.6
622.854	603.6	598.4
623.268	590.6	567.6
623.681	595.2	586.4
624.095	582.8	583.4
624.509	594.6	594.2
624.922	592.4	587.2
625.336	579.2	569.2
625.728	593.8	581.6
626.142	597	586.8
626.556	606.2	590.4
626.97	600.6	588.4
627.384	593.8	569.6
627.799	607.2	584.2
628.213	619	589.8
628.627	621.8	580.8
629.041	616.2	577.2
629.456	631	592.8
629.87	645	582.4
630.285	655.6	594.4
630.699	655.4	598.2
631.093	653.4	590.6
631.507	655.4	596.2
631.922	651.4	597.4
632.337	655.2	591.6
632.752	627	581.4
633.167	644.6	590
633.582	639	585.2
633.997	644	587.8
634.412	625.8	578
634.806	638.2	583.6
635.221	635	587.4
635.637	639.8	588.6
636.052	622.4	569.4
636.468	631	579.6
636.883	634.8	591.2
637.299	605.4	580.2
637.715	591.4	564
638.109	592.8	574.6
638.525	596.8	570.6
638.941	594.4	591.2
639.357	590.8	570.8
639.773	598	581.2
640.189	587.2	565.8
640.584	586.6	571.4
641	587	564.6
641.416	574	559.6
641.832	583	569
642.249	582.6	568.2
642.665	573.2	571.4
643.06	577.2	580.4
643.477	591.4	584.2
643.894	569.6	562.8
644.31	573.2	565.2
644.727	586.8	570.2
645.123	585.4	570.6
645.54	580.4	574.6
645.957	589.2	584.2
646.374	603	585
646.77	590.2	566.6
647.187	606.4	598.8
647.604	591.2	573
648.021	583	554.4
648.439	577	568
648.835	586.6	576
649.252	585.2	571.8
649.67	572.2	564.8
650.088	578.6	574.6
650.484	587.4	577
650.902	586.4	572
651.32	581	578.8
651.738	570.2	564
652.134	573.6	575.4
652.552	591.8	579
652.971	593.6	574.4
653.389	573.6	572.4
653.786	577.4	580.6
654.204	586.4	589
654.622	568.6	558.2
655.019	574.4	575.6
655.438	585.6	564
655.857	578.6	564.2
656.275	575.6	573.8
656.673	562.8	560.8
657.091	582.6	573.4
657.51	576	560.4
657.908	575	572.8
658.327	586.2	578.8
658.746	558.2	556.6
659.144	575	558.2
659.563	583.4	585.6
659.982	577.2	565.4
660.38	558	560.6
660.8	565.4	564.2
661.219	586.8	572.4
661.617	572.6	572.2
662.037	562.2	566.4
662.457	574.4	585.2
662.855	560.2	558.8
663.275	595.6	598.4
663.695	569.6	572.4
664.094	567.4	565.8
664.514	571	572.6
664.934	564	565.2
665.333	566.2	570.6
665.753	561	562.8
666.152	568.8	563.4
666.572	570.2	562.8
666.993	572.6	575.8
667.392	571.8	565.4
667.812	573	571.8
668.212	574.8	563.8
668.632	573.2	568.8
669.053	573	560.8
669.453	573	570.2
669.874	578.4	563.8
670.273	574.8	573.8
670.694	563.4	559
671.116	575	574.4
671.515	579.8	573.8
671.937	564	564.2
672.337	570.2	561.8
672.758	569.8	565.6
673.158	569.8	572.4
673.58	558.2	562.4
673.98	568.6	567
674.402	579.2	570.2
674.824	566.4	561.6
675.224	568.2	561
675.646	562	557.8
676.047	564	563.8
676.469	565.8	566.8
676.869	570.6	567.8
677.292	575	561.8
677.693	561.2	563.8
678.115	563.8	563
678.516	570.4	569.8
678.939	564.2	573.4
679.34	566.8	568.6
679.762	586.6	571.2
680.164	578.6	570.2
680.586	566.4	562.2
680.988	568.8	569
681.411	588.4	583.4
681.812	566.2	554.2
682.236	563	559.6
682.637	563	557
683.061	559.6	556.4
683.462	574.6	560.8
683.864	564.8	561.8
684.288	572	565
684.69	557.8	563.6
685.114	576.8	570.8
685.516	577.6	572
685.94	559	557.4
686.342	576	564
686.766	568.8	561
687.168	562.6	560.8
687.571	578	578.4
687.995	564.8	569.2
688.398	557.6	550
688.822	561	561
689.225	581.2	572.2
689.628	582	576.6
690.052	568.4	564.6
690.456	570.4	567
690.88	564	561
691.284	556	551
691.687	571.6	559.4
692.112	558.2	548.8
692.515	549.2	553.6
692.919	563.4	560.2
693.344	566.8	565.8
693.747	562.4	556.4
694.173	556	551.4
694.577	575.8	577.4
694.98	557.2	564.2
695.406	564	550.2
695.81	564.4	565.6
696.214	570.2	561.6
696.64	564.8	564.6
697.044	564.6	565.8
697.448	566	567.6
697.874	565.4	558
698.279	563.2	563.6
698.684	561	553.4
699.11	560.2	552.2
699.514	561	553.4
699.919	562.6	560.2
700.324	559.6	544.4
700.75	558.8	560.4
701.156	558.8	560.4
701.561	559.8	573.4
701.987	560.6	567.2
702.393	569.4	566.4
702.798	564	567.8
703.203	562.8	552.6
703.63	563	553.2
704.036	555.2	557.6
704.442	560.2	553.6
704.847	564	549.6
705.274	563.2	565
705.68	565.2	564.6
706.086	565.4	564.4
706.492	550.8	550.4
706.92	557.8	552.4
707.326	564	564
707.732	566.6	556
708.139	555	549.6
708.545	553.6	549.2
708.973	562.2	556.6
709.38	560.4	558.2
709.786	550	549.4
710.193	569.6	571.2
710.6	560.8	563.2
711.028	555.8	552.6
711.435	559.8	559
711.842	562.6	556
712.249	551.6	553.2
712.656	560.2	551.6
713.064	568.4	563
713.492	547.2	554.2
713.9	552.6	552.6
714.307	561.8	567.2
714.715	564.6	570
715.123	560.4	562.4
715.53	555	562.6
715.938	565.4	570
716.367	561.2	565.6
716.775	557.4	556.6
717.184	551	546.8
717.592	554.2	562.2
718	562.8	565
718.408	594.8	586.4
718.816	589.8	595.6
719.225	561.4	561.8
719.633	556.2	562
720.042	556.6	549.2
720.472	556.4	560.2
720.881	572.2	574.6
721.29	565.8	562.4
721.699	554.2	551
722.108	559.8	557.6
722.517	562.6	560.6
722.926	558.8	544.2
723.335	571.4	565.8
723.744	566.6	558.8
724.154	560.2	559.8
724.563	564.2	561.2
724.973	565.8	557.8
725.382	564.6	552.6
725.792	552.6	557.4
726.202	549	554
726.612	574.2	574
727.022	549.2	558.6
727.432	555.8	557
779.813	550.6	551.2
780.223	593	596
780.634	555.8	557.2
781.044	549.8	554.6
781.454	560.8	553
781.865	564.2	571.8
782.276	549	543.8
782.686	570.8	562.2
783.097	560.6	554.4
783.508	557.4	550.4
783.919	558.8	555
784.33	567.8	563.8
784.741	569.6	561.6
785.152	556.4	539.6
785.563	544	548.6
785.974	558.2	548
786.386	569.2	565.2
786.776	556	547.4
787.188	554.6	559.6
787.599	548.4	543
788.011	557.2	564
788.423	560.4	561.4
788.835	550.4	561.4
789.247	554.2	550
789.659	554.2	556.2
790.071	558.2	553.6
790.483	595.4	596.4
790.874	556.8	558.6
791.286	562.2	560.8
791.699	557.6	545.2
792.111	555.2	554.8
792.524	559.8	555.6
792.937	559.6	555.8
793.349	556.4	545.4
793.741	555.8	544.4
794.154	556.2	555.6
794.567	568.4	574.2
794.98	554	556.8
795.393	548.4	547.4
795.785	568.8	573.8
796.198	557.2	552.6
796.612	553.2	553.4
797.026	547	556
797.439	544.2	536.6
797.831	548	546.4
798.245	544.2	545
798.659	553	549.4
799.073	545.8	552
799.487	546	552.4
799.88	554.2	554.8
800.294	549.4	558.6
800.708	551.2	560.4
801.123	554.2	548.2
801.516	567.4	571.2
801.93	542.2	544.2
802.345	547.8	550.4
802.76	554.2	555
803.153	567.8	565.4
803.568	571.8	565.6
803.983	558.2	560.2
804.377	567.6	553.6
804.792	550.4	550.4
805.207	543.2	532.6
805.601	558.4	551.6
806.016	585.8	584.2
806.432	547	550.8
806.826	572.6	582.8
807.242	559.4	564.8
807.658	554.4	553.8
808.052	552.4	546.6
808.468	550.2	551.8
808.884	550.2	551.4
809.279	552.8	554.4
809.695	562	564.4
810.111	573.6	574.8
810.506	556.6	561.6
810.922	568	569.6
811.339	546.8	543.8
811.734	559.6	563.2
812.151	549.6	555
812.546	546.2	554.4
812.963	546.6	547.2
813.38	556.8	550.8
813.776	556.2	558.8
814.193	576.8	571
814.589	550.4	554
815.006	552.4	549.8
815.402	548.6	554.2
815.82	548.2	551.6
816.237	555.2	553.6
816.633	551.4	551.8
817.051	545.4	551.4
817.448	556.2	549.8
817.866	545.8	541.4
818.262	568.6	573.8
818.68	546.6	556
819.077	557.2	552.4
819.495	549.2	559.6
819.892	586	582.6
820.311	547	546.2
820.708	550.2	548.4
821.127	553.8	556.4
821.524	565.8	568.8
821.943	565.4	562
822.34	570	570.6
822.759	557.4	563.2
823.157	561.2	553.6
823.576	564.8	571.8
823.974	558.6	564.6
824.393	628	623.6
824.791	545	554.2
825.189	546.8	548.6
825.609	554.2	548
826.007	549.6	559.8
826.427	544.2	542.2
826.826	556.8	547.8
827.246	558.6	561.2
827.644	543.2	545.6
828.043	566	562.2
828.463	551.8	544.2
828.862	561	561.4
829.261	553	553.8
829.682	538	553.4
830.081	558.8	550.4
830.502	555.8	544.2
830.901	561.8	549.4
831.301	568.4	565
831.722	538.2	543.4
832.121	545.4	549.4
832.521	547.4	545.4
832.943	549	548.4
833.342	553.6	547
833.742	554.4	544.6
834.164	553.6	555.4
834.564	549.4	548.2
834.965	549.8	553.6
835.386	553	553.8
835.787	552.6	549
836.188	550.8	556.4
836.588	551.2	560.6
837.01	553.8	561
837.411	544.4	550.4
837.812	556.8	555
838.213	563.6	555.4
838.636	552	550.6
839.037	608.2	606
839.438	554.8	558
839.84	554.6	550.6
840.263	549.4	551.8
840.664	559.6	557.2
841.066	552.8	556.2
841.468	555	557.2
841.891	544.6	550.4
842.293	564	551.8
842.695	559.4	558.2
843.098	568.2	564.6
843.5	549.6	549.4
843.902	561.6	559
844.326	556.4	557
844.729	557.4	566
845.131	561.8	565.4
845.534	553.6	558
845.937	558.4	560.2
846.34	572.2	567.8
846.764	548.6	547.4
847.167	552	556.2
847.571	546.4	545.2
847.974	553.6	543.8
848.377	547.6	554.8
848.781	587.8	588.4
849.184	567	568.6
849.588	549.8	550
849.992	542.2	543.2
850.396	558.4	544
850.821	565.8	565.2
851.225	554.4	548.4
851.63	553.2	549.4
852.034	565.4	559.8
852.438	552.2	545.4
852.843	619.2	613
853.247	545	547.2
853.652	553	550
854.057	563.8	561.2
854.462	552.6	556
854.867	544.6	555.8
855.272	569.6	573.4
855.677	555.6	561.6
856.082	549.4	548.6
856.487	543.6	548.4
856.893	556.8	550.8
857.298	549	551.4
857.704	549.2	546
858.11	549.6	551.8
858.516	554.2	564.6
858.922	553.4	551.6
859.328	553.2	559.2
859.734	552.2	555
860.14	558.4	565
860.525	555.2	552.2
860.931	548	551.8
861.338	553.2	545.4
861.745	555.6	552.2
862.151	561.4	560.8
862.558	544.2	555.4
862.965	545.2	547.2
863.372	548.8	541.8
863.779	550.4	550.4
864.186	565.4	572.4
864.572	550.2	551.2
864.98	561.6	563.4
865.387	577.6	584.2
865.795	548.8	546.2
866.203	564.4	560.4
866.61	536.6	551.8
867.018	558.6	557.6
867.405	554.8	557
867.813	560.4	549.6
868.221	550.4	555.8
868.63	547.6	550.2
869.038	561	557.8
869.425	586.6	582.6
869.834	546	550.4
870.243	549.8	545.6
870.652	541.8	544.6
871.039	545.4	548.6
871.448	549.2	553
871.857	556.8	554.8
872.266	556.6	554.2
872.654	549.8	547.2
873.064	554.6	543.2
873.473	562.2	561.6
873.883	553.2	545.2
874.271	548.6	547.8
874.681	555.2	555
875.091	542.6	544.8
875.48	551.6	559.4
875.89	559	570.8
876.3	547.6	542.8
876.689	540.4	540.8
877.1	552.8	551.8
877.51	541.6	546.6
877.9	565.2	571.4
878.31	543.2	550.8
878.721	577.8	579.2
879.111	548.8	548.6
879.522	548.8	555.2
879.933	543.6	545
880.323	545.8	538
880.734	548.6	542
881.125	554	548.8
881.536	547.2	550
881.948	538.6	550
882.338	551.4	551.4
882.75	558	558
883.141	550.4	542.8
883.553	554.4	552.4
883.944	575.8	573.4
884.356	565.6	551
884.769	544.8	550.2
885.16	553	559.2
885.573	551	552.8
885.964	544	542.4
886.377	550.4	551.2
886.768	544	544.8
887.181	552.4	554
887.573	550.2	544.4
887.987	560.6	552.8
888.378	564.2	558.2
888.792	551.2	538.4
889.184	585	593
889.598	546.2	549.4
889.99	558	556.6
890.383	549.4	557
890.797	543.2	538.8
891.19	557.4	562.2
891.604	551.6	542
891.997	543.2	544.4
892.411	551.4	544.4
892.805	545.6	546.4
893.198	550	545.4
893.613	539.2	539.2
894.006	550.4	549.6
894.421	544.4	547.6
894.815	551.2	544.2
895.209	539.4	543.8
895.624	578.8	594.4
896.018	562.4	566.8
896.412	536.8	548.8
896.828	549.2	547.4
897.222	554.2	550.4
897.617	550.2	548.6
898.033	560.6	564.4
898.427	550.4	550.2
898.822	549.6	546.6
899.239	545	548.2
899.634	543	544.6
900.029	564.2	562.8
900.424	548.6	534.8
900.841	539.4	530.6
901.236	556.8	553.8
901.632	550	552.4
902.027	598.8	597.2
902.445	563	558.2
902.841	544.2	553
903.237	550.2	551.2
903.633	562.6	563.4
904.05	558	559.6
904.447	552.8	559.4
904.843	557.2	563.8
905.24	546.2	551.6
905.636	540.8	542.8
906.033	545.6	545.4
906.451	558.6	561.8
906.848	538.8	542.2
907.246	543.4	543.4
907.643	546.4	556.4
908.04	547.8	548.2
908.438	564	559.8
908.835	551.8	562
909.254	546.6	557.8
909.652	550.6	556.6
910.05	550.2	550.4
910.448	547	550.4
910.846	552.6	562.4
911.244	545.6	540.8
911.643	553.6	552.8
912.041	554	550.2
912.44	556.4	564.6
912.839	544.8	544.8
913.237	547.4	548.8
913.636	535.6	540.4
914.035	554.8	551.8
914.434	548.2	539.2
914.834	555.2	555
915.233	562.6	557.4
915.633	540.8	551
916.032	542.8	552.8
916.432	544.8	541.2
916.832	559.4	564.2
917.232	553	545.8
917.632	543.4	537.4
918.032	560.2	561.4
918.432	545.4	548.6
918.833	552.8	545.4
919.233	542.4	552.4
919.634	542.4	541
920.035	550	554.8
920.436	543.8	540.6
920.837	559.4	559
921.238	552.2	541.6
921.639	554	544.4
922.019	545	558.4
922.42	547.6	551.2
922.822	549.2	553.2
923.224	548.8	549
923.625	559.2	547.2
924.027	556.8	560.8
924.429	568	566.4
924.81	544.6	550.2
925.212	558.2	559.6
925.615	553.8	550.2
926.017	552.4	552.2
926.42	556.2	555
926.801	556.6	541.6
927.204	553	550.6
927.607	554	563.6
928.01	554.8	557.8
928.413	550	549
928.795	540.2	535.8
929.199	544.2	548.8
929.602	547.2	546.4
930.006	549.2	544.2
930.388	546.4	538.6
930.792	560.8	555
931.196	549	556.4
931.579	572.8	574.4
931.983	543	542.2
932.388	577.8	592.2
932.771	546.8	553
933.176	535.4	543.2
933.58	552.8	553.8
933.964	560.4	550.8
934.369	540.6	546.8
934.774	553	557.4
935.158	544.4	538.6
935.563	556.2	546.4
935.947	552	551.4
936.353	550.6	555.8
936.759	549.6	543
937.143	560	553.4
937.549	548.8	548.8
937.934	556.8	559.2
938.34	569.4	565.2
938.746	546.8	541
939.131	546.2	544.4
939.538	545.6	542.4
939.923	548	555.4
940.33	540	546.2
940.716	553.4	536.6
941.123	542.8	547.8
941.508	552.2	556.8
941.916	556.4	559.8
942.302	550.4	547.6
942.709	545.8	546.6
943.096	536.6	541.4
943.503	550.4	553.4
943.89	546.4	548
944.298	545.8	534.8
944.685	568.2	571.4
945.072	550	544.4
945.48	560.6	559
945.867	545.4	538.6
946.276	549.4	541.8
946.663	563.6	560.2
947.051	565.6	560.6
947.46	554.6	552.2
947.848	555.8	550.8
948.257	545	544.8
948.645	548.2	551.2
949.033	546.4	543.2
949.443	548.2	545.8
949.831	583.4	578.2
950.22	545.8	541.4
950.63	552.4	553
951.018	577	576.6
951.407	550	542.6
951.796	545.8	533.6
952.207	550.6	548.6
952.596	559.2	550.4
952.985	536	542.4
953.375	577	581
953.786	547.2	553.4
954.176	542.2	544
954.566	549.6	548.4
954.956	532	535.4
955.367	545.8	550.4
955.758	565.2	571
956.148	540	538.4
956.539	553.8	560
956.929	536.6	545.2
957.341	536.2	542.8
957.732	542	543.4
958.123	554	561.6
958.515	534.8	545.4
958.906	546	545.2
959.297	547	541.6
959.689	554.6	548.8
960.102	548	543.6
960.494	548.4	546.6
960.886	545.6	540.8
961.278	549.2	545.8
961.67	574.6	566.6
962.062	575.2	571.8
962.455	553.8	547
962.847	540.8	538
963.24	546.8	537.6
963.633	547.4	552.4
964.026	537.8	538.6
964.419	551.6	547.2
964.812	549.8	547.2
965.206	551.8	548.2
965.599	547.8	555.2
965.993	544.4	537.8
966.386	550.4	543.4
966.78	555.6	556.4
967.174	558.6	550.4
967.569	548	548.8
967.963	547	541.8
968.357	540.6	543
968.752	541.8	535
969.146	551.2	546.8
969.541	536.8	542.2
969.936	545.2	544.6
970.331	557.6	541.8
970.705	540.8	542.4
971.1	541.6	538
971.496	548.4	547
971.892	537.4	544.6
972.287	546.8	541
972.683	545.4	545.4
973.079	544.8	550.2
973.454	553.2	557.2
973.85	544	549.4
974.247	548.6	550.8
974.643	572.2	570.6
975.04	546.8	546.2
975.415	548.2	552.8
975.812	545.4	541
976.209	555.4	545.4
976.607	549	538.8
976.982	554.6	549.4
977.38	560.2	552.8
977.778	554.2	542.8
978.175	546	553.2
978.552	553.2	544.4
978.95	549.8	556.4
979.348	548.8	551.2
979.725	581.8	586.2
980.123	538.8	547.6
980.522	545.2	545.6
980.899	543.6	545.8
981.298	537.6	537.8
981.697	545	549.2
982.075	544.2	549.4
982.474	538	546.2
982.852	545.6	548.2
983.251	551.8	544.8
983.651	542.8	544.8
984.029	554.8	554.6
984.429	541.4	552.2
984.808	538.6	542.2
985.208	549	544.6
985.609	532	541.2
985.987	542.8	541
986.388	536.8	541
986.768	557.6	550.6
987.168	538	541
987.548	549	553.2
987.949	552	557.4
988.329	550.4	547.6
988.731	540.4	533.6
989.111	539.4	547.4
989.491	542.2	542.2
989.893	547	543.8
990.273	548.2	553.2
990.676	535.6	543.8
991.057	537.6	540
991.459	544.6	545.6
991.84	544	544
992.221	541.2	534
992.624	564.8	563.8
993.006	543.8	543
993.388	543.6	554.8
993.791	552.4	557
994.173	552.8	556
994.576	572.4	573.4
994.959	544.2	541.4
995.341	543.4	546.8
995.724	545.6	551
996.128	544.6	546.8
996.511	538.4	543.2
996.894	545.4	546.4
997.298	537.6	539
997.681	547.4	547.4
998.065	542.8	549.4
998.448	542	543.4
998.854	547.2	553.4
999.237	533.2	534.6
999.621	549.8	552.4
1000.01	556.8	564.2
1000.39	543	549.8
1000.8	544	541.2
1001.18	548	554
1001.56	551.4	552.2
1001.95	543.8	545.4
1002.33	557.2	554
1002.72	553	546.4
1003.13	546.6	539.8
1003.51	545.6	553
1003.9	547.2	543.2
1004.28	557.2	558.6
1004.67	543.4	547
1005.06	552	547.6
1005.44	569	573.2
1005.83	538.2	535.6
1006.21	553.6	542.2
1006.6	544.6	548.8
1006.99	552.2	552.8
1007.37	557.4	548.8
1007.76	546.2	552.8
1060.12	542	545.4
1060.51	542.2	541.8
1060.89	549.2	550
1061.28	554.4	554.6
1061.67	554.2	553.6
1062.06	555.6	542.8
1062.45	556.4	548.4
1062.83	546.4	534.2
1063.22	557.4	555.6
1063.61	576.4	578.4
1064	551.4	548.2
1064.39	548.2	547.2
1064.78	541	542.6
1065.14	552.6	555
1065.53	545.8	558
1065.92	546.2	546.8
1066.31	545.4	533.8
1066.7	555	555.6
1067.09	556	566.8
1067.46	545.4	554
1067.85	546.4	547
1068.24	541.8	541.6
1068.63	552.6	547.6
1069.02	541.6	543.2
1069.39	550.6	549.6
1069.78	538.8	542.2
1070.17	538.6	551.8
1070.57	531.6	541
1070.93	544.6	549.2
1071.33	538.6	533.6
1071.72	548.8	543.8
1072.11	539	546.4
1072.48	541.2	553.8
1072.87	544.2	546.4
1073.26	543.6	543.4
1073.64	540.4	544.4
1074.03	539.8	542.8
1074.4	551.6	551.8
1074.79	538.2	538
1075.19	547.8	552
1075.56	544.2	547.2
1075.95	542.8	545.2
1076.34	538	542.4
1076.72	558.8	552.6
1077.11	546.4	544.8
1077.48	556	549.8
1077.88	557	538.4
1078.25	548.2	546
1078.64	551.4	555.4
1079.02	547.6	547.6
1079.41	556.4	554.8
1079.78	543	540.2
1080.18	542.8	539.2
1080.55	594.2	604.8
1080.95	539.2	541.8
1081.32	539.2	539.4
1081.72	553.2	546.6
1082.09	544.6	548.2
1082.49	542.8	534.6
1082.86	550	547.6
1083.24	533.4	541.8
1083.63	538.2	532.8
1084.01	546	546.6
1084.38	551.8	550.4
1084.78	542.4	541.6
1085.16	543	543.8
1085.55	558.4	554
1085.93	554.6	557
1086.31	536	543
1086.7	570	571.8
1087.08	541.2	551
1087.46	539.4	539.4
1087.83	535.4	536.6
1088.23	553.6	545.8
1088.61	544.4	541.2
1088.99	549.6	543.2
1089.36	541.6	539
1089.76	546.6	544.6
1090.14	543.2	539.2
1090.52	551.8	540
1090.9	547.4	540
1091.27	560.6	554.6
1091.67	561.6	569.8
1092.05	552.4	544.8
1092.43	544	536.2
1092.81	551.2	555.2
1093.19	544.2	543.4
1093.57	550.2	545.8
1093.95	544.2	542.4
1094.35	554.2	557.8
1094.73	554.6	560.4
1095.11	537.2	536
1095.49	543	552.8
1095.87	547.4	547.4
1096.25	556.8	558
1096.63	553.2	553.4
1097.01	542.6	542.4
1097.39	557.4	548.2
1097.77	540.8	544.8
1098.15	548.2	540
1098.53	541	545.8
1098.91	541.2	544.4
1099.29	539.8	552.2
1099.68	557	555.8
1100.06	548.6	554.2
1100.44	545.6	547.4
1100.82	550.2	547.2
1101.18	553.2	555
1101.56	544.2	544
1101.95	541	542.8
1102.33	545.4	544
1102.71	546	547.8
1103.1	536.4	541.8
1103.48	547.6	537
1103.86	540.6	541
1104.22	549.4	547.8
1104.61	550.6	547.6
1104.99	539.6	545.8
1105.38	531.2	540.8
1105.76	545	542.8
1106.12	548.4	544.4
1106.51	577.2	574
1106.89	556	555.4
1107.26	550.2	547.8
1107.64	550.8	541.2
1108.03	539.6	537.6
1108.41	550.2	542.4
1108.78	543.8	544.6
1109.16	541	545.6
1109.55	557.4	547.6
1109.91	536	534.2
1110.3	536.6	533.6
1110.69	552.8	556.6
1111.05	537.4	541.6
1111.44	547.4	548.2
1111.8	541.6	547.2
1112.19	541	547.6
1112.58	540.2	537.4
1112.94	550.2	543.6
1113.33	543	539.2
1113.7	538.2	535.8
1114.09	536.2	534.2
1114.45	544	541
1114.84	539	536.4
1115.21	557.6	542.2
1115.6	546.4	538.6
1115.96	539.8	544
1116.35	545	544.8
1116.72	546.4	541.2
1117.11	550.4	546.8
1117.48	549.2	539.2
1117.85	542.4	547.6
1118.24	549.6	548.8
1118.6	543.4	543.8
1118.99	542.2	542.2
1119.36	543	542.6
1119.73	537.2	550.2
1120.12	541.6	544.8
1120.49	530.4	535.4
1120.86	550.8	549.2
1121.25	545	540
1121.62	535.6	540.8
1121.99	536.4	535.2
1122.38	557.4	552.6
1122.76	542.6	543.8
1123.13	531.4	541
1123.5	545.6	548.6
1123.89	555.8	554.8
1124.26	539	529.8
1124.63	549	546.6
1125	545.8	544.2
1125.4	545	538
1125.77	542	534.6
1126.14	533	538.4
1126.51	548.6	541.2
1126.88	546.8	548.2
1127.26	542.2	539.6
1127.63	527.2	532
1128.02	534.6	538.4
1128.4	540.8	536.6
1128.77	542.2	540.4
1129.14	544.8	547.2
1129.52	540.2	544.4
1129.89	547	547.4
1130.26	540.4	540.8
1130.64	536.6	537
1131.01	543.2	546
